<?xml version="1.0" encoding="UTF-8"?>
<Bundle xmlns="http://hl7.org/fhir">
	<id value="c06e13aa-8c3b-4e67-999b-6e07e399e741"/>
	<meta>
		<lastUpdated value="2015-02-17T12:00:00+00:00"/>
		<profile value="https://fhir.nhs.uk/STU3/StructureDefinition/ITK-Document-Bundle-1"/>
	</meta>
	<identifier>
		<system value="https://tools.ietf.org/html/rfc4122"/>
		<value value="1ff370b6-fc5b-40a1-9721-2a942e301f65"/>
	</identifier>
	<type value="document"/>
	<entry>
		<fullUrl value="urn:uuid:fa2a75a7-4257-422d-92a4-cf537f078e13"/>
		<resource>
			<!--A resource carrying a set of healthcare-related information about the patient-->
			<Composition>
				<id value="fa2a75a7-4257-422d-92a4-cf537f078e13"/>
				<meta>
					<profile value="https://fhir.nhs.uk/STU3/StructureDefinition/CareConnect-ITK-EDIS-Composition-1"/>
				</meta>
				<!-- Extension to carry details of the Correspondence Care Setting Type. -->
				<extension url="https://fhir.hl7.org.uk/STU3/StructureDefinition/Extension-CareConnect-CareSettingType-1">
					<valueCodeableConcept>
						<coding>
							<system value="http://snomed.info/sct"/>
							<code value="893061000000109"/>
							<display value="Cardiology service"/>
						</coding>
					</valueCodeableConcept>
				</extension>
				<identifier>
					<system value="https://tools.ietf.org/html/rfc4122"/>
					<value value="2b5d459b-df79-4a2b-9b0c-95b2a7ee2ca4"/>
				</identifier>
				<!--The workflow/clinical status of this composition. The status is a marker for 
the clinical standing of the document.-->
				<status value="final"/>
				<type>
					<!--Discharge Summary document type-->
					<coding>
						<system value="http://snomed.info/sct"/>
						<code value="373942005"/>
						<display value="Discharge summary"/>
					</coding>
				</type>
				<!--Reference to the patient subject of the Composition-->
				<subject>
					<reference value="urn:uuid:31686b67-9f20-4644-9a54-193d2f91de57"/>
				</subject>
				<!--Reference to the clinical encounter or type of care this documentation is associated with.-->
				<encounter>
					<reference value="urn:uuid:4f36b35a-ad18-4ea9-a3fb-c893f709e88a"/>
				</encounter>
				<!--The composition editing time, when the composition was last logically changed by the author.-->
				<date value="2015-02-17T10:00:00+00:00"/>
				<!--Identifies who is responsible for the information in the composition, not necessarily who typed it in-->
				<author>
					<reference value="urn:uuid:6239b7a7-380d-46ff-a1c5-7abc4e68f8bc"/>
				</author>
				<title value="Cardiology Service Discharge Summary"/>
				<!--Identifies the organization responsible for ongoing maintenance of and 
access to the composition/document information.-->
				<custodian>
					<reference value="urn:uuid:12bba528-a08a-448b-946b-7e8008044025"/>
				</custodian>
				<!--Admission details-->
				<section>
					<!--The label for this particular section. This will be part of the rendered content for the document, 
and is often used to build a table of contents.-->
					<title value="Admission details"/>
					<!--A SNOMED CT code identifying the kind of content contained within the section-->
					<code>
						<coding>
							<system value="http://snomed.info/sct"/>
							<code value="886781000000108"/>
							<display value="Admission details"/>
						</coding>
					</code>
					<!--A human-readable narrative that contains the attested content of the section-->
					<text>
						<status value="extensions"/>
						<div xmlns="http://www.w3.org/1999/xhtml">
							<table width="100%">
								<tbody>
									<tr>
										<th>Reason for admission</th>
										<td>ECG: inferior ischaemia</td>
									</tr>
									<tr>
										<th>Admission method</th>
										<td>Accident and emergency or dental casualty department of the Health Care Provider</td>
									</tr>
									<tr>
										<th>Source of admission</th>
										<td>NHS other Hospital Provider - Ward for general Patients or the younger 
physically disabled or A and E department</td>
									</tr>
									<tr>
										<th>Date/time of admission</th>
										<td>12-Feb-2015 09:00</td>
									</tr>
								</tbody>
							</table>
						</div>
					</text>
					<!--Reference to the encounter resource where information for this section can be found-->
					<entry>
						<reference value="urn:uuid:4f36b35a-ad18-4ea9-a3fb-c893f709e88a"/>
					</entry>
				</section>
				<!--Allergies and adverse reactions-->
				<section>
					<title value="Allergies and adverse reactions"/>
					<code>
						<coding>
							<system value="http://snomed.info/sct"/>
							<code value="886921000000105"/>
							<display value="Allergies and adverse reactions"/>
						</coding>
					</code>
					<text>
						<status value="additional"/>
						<div xmlns="http://www.w3.org/1999/xhtml">
							<table width="100%">
								<tbody>
									<tr>
										<th>Causative agent</th>
										<td>Penicillin -class of antibiotic-</td>
									</tr>
									<tr>
										<th>Description of reaction</th>
										<td>Eruption due to drug</td>
									</tr>
									<tr>
										<th>Date recorded</th>
										<td>12 February 2015</td>
									</tr>
									<tr>
										<th>Severity</th>
										<td>Mild</td>
									</tr>
									<tr>
										<th>Certainty</th>
										<td>Certain</td>
									</tr>
									<tr>
										<th>Comment</th>
										<td>No swelling</td>
									</tr>
								</tbody>
							</table>
						</div>
					</text>
					<!--Reference to Allergies List as the source of information for this section-->
					<entry>
						<reference value="urn:uuid:95e8f8d0-dfc3-4c72-a9dc-7ba1ccd1fab4"/>
					</entry>
				</section>
				<!--Assessment scales-->
				<section>
					<title value="Assessment scales"/>
					<code>
						<coding>
							<system value="http://snomed.info/sct"/>
							<code value="887141000000103"/>
							<display value="Assessment scales"/>
						</coding>
					</code>
					<text>
						<status value="additional"/>
						<div xmlns="http://www.w3.org/1999/xhtml">
							<table width="100%">
								<tbody>
									<tr>
										<th>Assessment scale</th>
										<td>TIMI assessment</td>
									</tr>
								</tbody>
							</table>
						</div>
					</text>
				</section>
				<!--Clinical summary-->
				<section>
					<title value="Clinical summary"/>
					<code>
						<coding>
							<system value="http://snomed.info/sct"/>
							<code value="887181000000106"/>
							<display value="Clinical summary"/>
						</coding>
					</code>
					<text>
						<status value="additional"/>
						<div xmlns="http://www.w3.org/1999/xhtml">
							<table width="100%">
								<tbody>
									<tr>
										<th>Clinical Summary</th>
									</tr>
									<tr>
										<td>
											<p>60 year old man complaining of chest pain lasting around 2 hours.</p>
											<p>Examination unremarkable.</p>
											<p>Inferior ischaemic changes on ECGs.</p>
											<p>Coronary angiogram demonstrated diseased RCA, drug eluting stent successfully placed.</p>
											<p>Appropriate secondary prevention medications prescribed for follow up with Cardiac Rehabilitation team.</p>
										</td>
									</tr>
								</tbody>
							</table>
						</div>
					</text>
				</section>
				<!--Diagnoses-->
				<section>
					<title value="Diagnoses"/>
					<code>
						<coding>
							<system value="http://snomed.info/sct"/>
							<code value="887161000000102"/>
							<display value="Diagnoses"/>
						</coding>
					</code>
					<text>
						<status value="additional"/>
						<div xmlns="http://www.w3.org/1999/xhtml">
							<table width="100%">
								<tbody>
									<tr>
										<th>Diagnosis name</th>
										<td>Coronary arteriosclerosis</td>
									</tr>
									<tr>
										<th>Comment</th>
										<td>The coronary angiogram indicates a diseased RCA.</td>
									</tr>
								</tbody>
							</table>
						</div>
					</text>
					<entry>
						<reference value="urn:uuid:caf5f17d-e73d-4aaa-a406-dab1717da0c4"/>
					</entry>
				</section>
				<!--Discharge details-->
				<section>
					<title value="Discharge details"/>
					<code>
						<coding>
							<system value="http://snomed.info/sct"/>
							<code value="886811000000106"/>
							<display value="Discharge details"/>
						</coding>
					</code>
					<text>
						<status value="additional"/>
						<div xmlns="http://www.w3.org/1999/xhtml">
							<table width="100%">
								<tbody>
									<tr>
										<th>Discharging consultant</th>
										<td>
											<p>Prefix: Dr</p>
											<p>Given Name: Paul</p>
											<p>Family Name: Rastall</p>
										</td>
									</tr>
									<tr>
										<th>Discharging specialty/department</th>
										<td>Cardiology</td>
									</tr>
									<tr>
										<th>Discharge location</th>
										<td>
											<p>Name: Cramer ward</p>
											<p>Identifier: RR8CRAM</p>
										</td>
									</tr>
									<tr>
										<th>Date/time of discharge</th>
										<td>16-Feb-2015 15:00</td>
									</tr>
									<tr>
										<th>Discharge method</th>
										<td>Patient discharged on clinical advice or with clinical consent</td>
									</tr>
									<tr>
										<th>Discharge type</th>
										<td>Usual place of residence unless listed below, for example, a private dwelling 
whether owner occupied or owned by Local Authority, housing association or other landlord. 
This includes wardened accommodation but not residential accommodation where health care is provided. 
It also includes Patients with no fixed abode.</td>
									</tr>
								</tbody>
							</table>
						</div>
					</text>
					<!--Reference to the Encounter entry as a source of information for this section-->
					<entry>
						<reference value="urn:uuid:4f36b35a-ad18-4ea9-a3fb-c893f709e88a"/>
					</entry>
					<!--Reference to the Practitioner entry as a source of information for this section-->
					<entry>
						<reference value="urn:uuid:6239b7a7-380d-46ff-a1c5-7abc4e68f8bc"/>
					</entry>
				</section>
				<!--Distribution list-->
				<section>
					<title value="Distribution list"/>
					<code>
						<coding>
							<system value="http://snomed.info/sct"/>
							<code value="887261000000109"/>
							<display value="Distribution list"/>
						</coding>
					</code>
					<text>
						<status value="generated"/>
						<div xmlns="http://www.w3.org/1999/xhtml">
							<table width="100%">
								<tbody>
									<tr>
										<th>Name</th>
										<td>
											<p>Prefix: Mrs</p>
											<p>Given Name: Angela</p>
											<p>Family Name: Jones</p>
										</td>
									</tr>
									<tr>
										<th>Role</th>
										<td>Community Nurse</td>
									</tr>
									<tr>
										<th>Organisation name</th>
										<td>Leeds Community Healthcare NHS Trust</td>
									</tr>
								</tbody>
							</table>
							<table width="100%">
								<tbody>
									<tr>
										<th>Name</th>
										<td>
											<p>Prefix: Dr</p>
											<p>Given Name: John</p>
											<p>Family Name: Lorenzo</p>
										</td>
									</tr>
									<tr>
										<th>Role</th>
										<td>General Medical Practitioner</td>
									</tr>
									<tr>
										<th>Organisation name</th>
										<td>MGP Medical Centre</td>
									</tr>
								</tbody>
							</table>
						</div>
					</text>
					<!--Reference to the practitioner entries as recipients of information-->
					<entry>
						<reference value="urn:uuid:8ece9986-9af0-4882-b0cf-23a96ea7b509"/>
					</entry>
					<entry>
						<reference value="urn:uuid:5e414a77-d394-4248-a631-00e45ddb64a0"/>
					</entry>
				</section>
				<!-- GP Practice-->
				<section>
					<title value="GP practice"/>
					<code>
						<coding>
							<system value="http://snomed.info/sct"/>
							<code value="886711000000101"/>
							<display value="GP practice"/>
						</coding>
					</code>
					<text>
						<status value="additional"/>
						<div xmlns="http://www.w3.org/1999/xhtml">
							<table width="100%">
								<tbody>
									<tr>
										<th>GP name</th>
										<td>
											<p>Prefix: Dr</p>
											<p>Given Name: John</p>
											<p>Family Name: Lorenzo</p>
										</td>
									</tr>
									<tr>
										<th>GP practice details</th>
										<td>
											<p>Name: MGP Medical Centre</p>
											<p>Address:</p>
											<p>Address Line: 1 MGP House, Overtown</p>
											<p>City: Leeds</p>
											<p>Post Code: LS21 7PA</p>
										</td>
									</tr>
								</tbody>
							</table>
						</div>
					</text>
					<!--Reference to the Organisation entry as the source of information for this section-->
					<entry>
						<reference value="urn:uuid:f9f24f89-646b-4a19-a6b1-cabfa3b612e1"/>
					</entry>
				</section>
				<!--Individual requirements-->
				<section>
					<title value="Individual requirements"/>
					<code>
						<coding>
							<system value="http://snomed.info/sct"/>
							<code value="1078911000000106"/>
							<display value="Individual requirements"/>
						</coding>
					</code>
					<text>
						<status value="additional"/>
						<div xmlns="http://www.w3.org/1999/xhtml">
							<table width="100%">
								<tbody>
									<tr>
										<th>Individual requirements</th>
										<td>Hospital needs to arrange for transportation to the patient's home.</td>
									</tr>
								</tbody>
							</table>
						</div>
					</text>
				</section>
				<!--Information and advice given-->
				<section>
					<title value="Information and advice given"/>
					<code>
						<coding>
							<system value="http://snomed.info/sct"/>
							<code value="1052951000000105"/>
							<display value="Information and advice given"/>
						</coding>
					</code>
					<text>
						<status value="additional"/>
						<div xmlns="http://www.w3.org/1999/xhtml">
							<table width="100%">
								<tbody>
									<tr>
										<th>Information and advice given</th>
										<td>
											<p>Patient seen by Cardiac Rehab and information given regarding the diagnosis and possible 
life style changes when he is discharged.</p>
											<p>Richard is concerned about whether he can drive and asks about this as he is a self employed electrician.</p>
											<p> Dr Paul Rastall advised him that he should not to drive for at least a week, 
but reassured him that he should be able to drive once recovered and said he will arrange for a community follow-up.</p>
										</td>
									</tr>
								</tbody>
							</table>
						</div>
					</text>
				</section>
				<!--Investigation results-->
				<section>
					<title value="Investigation results"/>
					<code>
						<coding>
							<system value="http://snomed.info/sct"/>
							<code value="1082101000000102"/>
							<display value="Investigation results"/>
						</coding>
					</code>
					<text>
						<status value="additional"/>
						<div xmlns="http://www.w3.org/1999/xhtml">
							<table>
								<tbody>
									<tr>
										<th>Investigation result</th>
									</tr>
									<tr>
										<td>
											<pre>
Full Blood Count 
 
TestValueUnitsReference Range
White Cell Count11.1x10*9/L3.5 - 10.0
Red Cell Count5.0x10*12/L4.25 - 5.75 
Haemoglobin150g/L13.0 - 17.0
Haematocrit0.2300.400 - 0.500
Mean Cell Volume90fL84 - 98
Mean Cell Hb33.0pg27.5 - 32.0
Mean Cell Hb Con34.0pg31.0 - 35.0
RDW12.0%&lt; 14.5
Platelet Count300x10*9/L150 - 400

Machine Differential 
 
Test ValueUnits Reference Range
Neutrophils7.0x10*9/L1.7 - 7.5
Lymphocytes3.5x10*9/L1.0 - 3.5 
Monocytes0.3x10*9/L&lt; 0.6 
Eosinophils0.4x10*9/L&lt; 0.4 
Basophils0.1x10*9/L&lt; 0.1 
LUCs0.2x10*9/L&lt; 0.4 
 </pre>
										</td>
									</tr>
								</tbody>
							</table>
						</div>
					</text>
				</section>
				<!--Medications-->
				<section>
					<title value="Medications and medical devices"/>
					<code>
						<coding>
							<system value="http://snomed.info/sct"/>
							<code value="933361000000108"/>
							<display value="Medications and medical devices"/>
						</coding>
					</code>
					<text>
						<status value="extensions"/>
						<div xmlns="http://www.w3.org/1999/xhtml">
							<table width="100%">
								<tbody>
									<tr>
										<th>Medication name</th>
										<td>Ramipril 2.5mg tablets</td>
									</tr>
									<tr>
										<th>Form</th>
										<td>Tablet</td>
									</tr>
									<tr>
										<th>Route</th>
										<td>Oral</td>
									</tr>
									<tr>
										<th>Dose directions description</th>
										<td>One 2.5mg tablet once a day.</td>
									</tr>
									<tr>
										<th>Status</th>
										<td>Continued</td>
									</tr>
								</tbody>
							</table>
							<table width="100%">
								<tbody>
									<tr>
										<th>Medication name</th>
										<td>Aspirin 75mg tablets (Sigma Pharmaceuticals Plc)</td>
									</tr>
									<tr>
										<th>Form</th>
										<td>Tablet</td>
									</tr>
									<tr>
										<th>Route</th>
										<td>Oral</td>
									</tr>
									<tr>
										<th>Dose directions description</th>
										<td>Take one 75mg tablet once a day.</td>
									</tr>
									<tr>
										<th>Status</th>
										<td>Continued</td>
									</tr>
								</tbody>
							</table>
							<table width="100%">
								<tbody>
									<tr>
										<th>Medication name</th>
										<td>Clopidogrel 75mg tablets (Almus Pharmaceuticals Ltd)</td>
									</tr>
									<tr>
										<th>Form</th>
										<td>Tablet</td>
									</tr>
									<tr>
										<th>Route</th>
										<td>Oral</td>
									</tr>
									<tr>
										<th>Dose directions description</th>
										<td>Take one 75mg tablet daily for one year then stop.</td>
									</tr>
									<tr>
										<th>Status</th>
										<td>Added</td>
									</tr>
								</tbody>
							</table>
							<table width="100%">
								<tbody>
									<tr>
										<th>Medication name</th>
										<td>Simvastatin 40mg tablets (Brown &amp; Burk UK Ltd)</td>
									</tr>
									<tr>
										<th>Form</th>
										<td>Tablet</td>
									</tr>
									<tr>
										<th>Route</th>
										<td>Oral</td>
									</tr>
									<tr>
										<th>Dose directions description</th>
										<td>Take one 40mg tablet once a day.</td>
									</tr>
									<tr>
										<th>Status</th>
										<td>Continued</td>
									</tr>
								</tbody>
							</table>
							<table width="100%">
								<tbody>
									<tr>
										<th>Medication name</th>
										<td>Bisoprolol 5mg tablets (A A H Pharmaceuticals Ltd)</td>
									</tr>
									<tr>
										<th>Form</th>
										<td>Tablet</td>
									</tr>
									<tr>
										<th>Route</th>
										<td>Oral</td>
									</tr>
									<tr>
										<th>Dose directions description</th>
										<td>Take one 5mg tablet daily.</td>
									</tr>
									<tr>
										<th>Comment</th>
										<td>Recommend Uptitrate according to BP and HR</td>
									</tr>
									<tr>
										<th>Status</th>
										<td>Continued</td>
									</tr>
								</tbody>
							</table>
						</div>
					</text>
					<!--Reference to medication list-->
					<entry>
						<reference value="urn:uuid:d0710501-2e32-4cbd-bd63-a14354bbcd0f"/>
					</entry>
				</section>
				<!-- Patient and carer concerns, expectations and wishes-->
				<section>
					<title value="Patient and carer concerns, expectations and wishes"/>
					<code>
						<coding>
							<system value="http://snomed.info/sct"/>
							<code value="1052941000000107"/>
							<display value="Patient and carer concerns, expectations and wishes"/>
						</coding>
					</code>
					<text>
						<status value="additional"/>
						<div xmlns="http://www.w3.org/1999/xhtml">
							<table width="100%">
								<tbody>
									<tr>
										<th>Patient and carer concerns, expectations and wishes</th>
										<td>The carer is concerned about the possibility of the patient suffering from a heart attack, 
 bearing a similarity to the illness of the mother of the patient. 
 The patient is worried about the impact of their illness on their ability to work and drive.</td>
									</tr>
								</tbody>
							</table>
						</div>
					</text>
				</section>
				<!-- Patient demographics-->
				<section>
					<title value="Patient demographics"/>
					<code>
						<coding>
							<system value="http://snomed.info/sct"/>
							<code value="886731000000109"/>
							<display value="Patient demographics"/>
						</coding>
					</code>
					<text>
						<status value="additional"/>
						<div xmlns="http://www.w3.org/1999/xhtml">
							<table width="100%">
								<tbody>
									<tr>
										<th>Patient name</th>
										<td>
											<p>Prefix: Mr</p>
											<p>Given Name: Richard</p>
											<p>Family Name: Smith</p>
										</td>
									</tr>
									<tr>
										<th>Date of birth</th>
										<td>1 January 1957</td>
									</tr>
									<tr>
										<th>Gender</th>
										<td>Male</td>
									</tr>
									<tr>
										<th>NHS number</th>
										<td>1352465790</td>
									</tr>
									<tr>
										<th>Patient address</th>
										<td>
											<p>Address Line: 21, Grove Street, Overtown</p>
											<p>City: Leeds</p>
											<p>Post Code: LS21 1PF</p>
										</td>
									</tr>
									<tr>
										<th>Relevant contacts</th>
										<td>Name: Joy Smith <p>Relationship: Next of kin</p>
											<p>Contact details: Tel. 0712345678 Email. mrssmith@mymail.com</p>
										</td>
									</tr>
								</tbody>
							</table>
						</div>
					</text>
					<!--reference to further information carried in the patient resource-->
					<entry>
						<reference value="urn:uuid:31686b67-9f20-4644-9a54-193d2f91de57"/>
					</entry>
				</section>
				<!--Person completing record-->
				<section>
					<title value="Person completing record"/>
					<code>
						<coding>
							<system value="http://snomed.info/sct"/>
							<code value="887231000000104"/>
							<display value="Person completing record"/>
						</coding>
					</code>
					<text>
						<status value="additional"/>
						<div xmlns="http://www.w3.org/1999/xhtml">
							<table width="100%">
								<tbody>
									<tr>
										<th>Name</th>
										<td>
											<p>Prefix: Dr</p>
											<p>Given Name: Paul</p>
											<p>Family Name: Rastall</p>
										</td>
									</tr>
									<tr>
										<th>Role</th>
										<td>Consultant</td>
									</tr>
									<tr>
										<th>Specialty</th>
										<td>Cardiology</td>
									</tr>
									<tr>
										<th>Professional identifier</th>
										<td>GMC: 6122477</td>
									</tr>
									<tr>
										<th>Date and time completed</th>
										<td>17 Feb 2015 10:00</td>
									</tr>
									<tr>
										<th>Contact details</th>
										<td>Phone: 0113 6323200 (Work)</td>
									</tr>
									<tr>
										<th>Organisation</th>
										<td>
											<p>Name: Leeds Teaching Hospitals NHS Trust,</p>
											<p>Address Line: St James's University Hospital, Beckett Street</p>
											<p>City: Leeds</p>
											<p>Post Code: LS9 7TF</p>
										</td>
									</tr>
								</tbody>
							</table>
						</div>
					</text>
					<!--reference to practitioner entry-->
					<entry>
						<reference value="urn:uuid:6239b7a7-380d-46ff-a1c5-7abc4e68f8bc"/>
					</entry>
				</section>
				<!--Plan and requested actions-->
				<section>
					<title value="Plan and requested actions"/>
					<code>
						<coding>
							<system value="http://snomed.info/sct"/>
							<code value="887201000000105"/>
							<display value="Plan and requested actions"/>
						</coding>
					</code>
					<text>
						<status value="additional"/>
						<div xmlns="http://www.w3.org/1999/xhtml">
							<table width="100%">
								<tbody>
									<tr>
										<th>Actions for healthcare professionals</th>
										<td>GP please continue secondary preventative medication. <p>Status: Requested</p>
											<p>Doses will be uptitrated by Cardiac Rehab team.</p>
											<p>Status: Requested</p>
										</td>
									</tr>
									<tr>
										<th>Actions for patient or their carer</th>
										<td>Patient to attend community follow up after discharge.</td>
									</tr>
									<tr>
										<th>Agreed with patient or legitimate patient representative</th>
										<td>Patient agreed to avoid driving for one week on discharge.</td>
									</tr>
								</tbody>
							</table>
						</div>
					</text>
				</section>
				<!--Procedures-->
				<section>
					<title value="Procedures"/>
					<code>
						<coding>
							<system value="http://snomed.info/sct"/>
							<code value="887171000000109"/>
							<display value="Procedures"/>
						</coding>
					</code>
					<text>
						<status value="additional"/>
						<div xmlns="http://www.w3.org/1999/xhtml">
							<table width="100%">
								<tbody>
									<tr>
										<th>Procedure name</th>
										<td>Percutaneous coronary intervention</td>
									</tr>
									<tr>
										<th>Anatomical site</th>
										<td>Right coronary artery structure</td>
									</tr>
									<tr>
										<th>Comment</th>
										<td>Patient successfully underwent angioplasty procedure to place a drug eluting stent.</td>
									</tr>
								</tbody>
							</table>
						</div>
					</text>
					<!--reference to further information carried in the procedure list-->
					<entry>
						<reference value="urn:uuid:1e04ce96-6e52-4f82-bc26-93c89c5836a1"/>
					</entry>
				</section>
				<!--Referrer details-->
				<section>
					<title value="Referrer details"/>
					<code>
						<coding>
							<system value="http://snomed.info/sct"/>
							<code value="1052891000000108"/>
							<display value="Referrer details"/>
						</coding>
					</code>
					<text>
						<status value="generated"/>
						<div xmlns="http://www.w3.org/1999/xhtml">
							<table width="100%">
								<tbody>
									<tr>
										<th>Referrer details</th>
										<td>
											<p>Name:</p>
											<p>Prefix: Dr.</p>
											<p>Given name: Amanda</p>
											<p>Family name: Smith</p>
											<p>Role: Specialist Registrar</p>
											<p>Tel: 0113 6323222 (work)</p>
											<p>Organisation</p>
											<p>Name: St. James's University Hospital Accident and Emergency Department</p>
											<p>Address Line: St James's University Hospital, Beckett Street</p>
											<p>City: Leeds</p>
											<p>Post Code: LS9 7TF</p>
										</td>
									</tr>
								</tbody>
							</table>
						</div>
					</text>
					<!--reference to practitioner and organisation entries-->
					<entry>
						<reference value="urn:uuid:d791b058-2624-436a-bc02-db38d65325b8"/>
					</entry>
					<entry>
						<reference value="urn:uuid:5f76e146-3eaa-4f0e-aa3b-8d26b8b2febe"/>
					</entry>
				</section>
				<!--Social context -->
				<section>
					<title value="Social context"/>
					<code>
						<coding>
							<system value="http://snomed.info/sct"/>
							<code value="887051000000101"/>
							<display value="Social context"/>
						</coding>
					</code>
					<text>
						<status value="additional"/>
						<div xmlns="http://www.w3.org/1999/xhtml">
							<table width="100%">
								<tbody>
									<tr>
										<th>Household composition</th>
										<td>Lives with wife</td>
									</tr>
									<tr>
										<th>Occupational history</th>
										<td>Self employed electrician</td>
									</tr>
								</tbody>
							</table>
						</div>
					</text>
				</section>
			</Composition>
		</resource>
	</entry>
	<!--Encounter-->
	<entry>
		<fullUrl value="urn:uuid:4f36b35a-ad18-4ea9-a3fb-c893f709e88a"/>
		<resource>
			<!--Encounter resource providing context for the discharge-->
			<Encounter>
				<id value="4f36b35a-ad18-4ea9-a3fb-c893f709e88a"/>
				<meta>
					<profile value="https://fhir.nhs.uk/STU3/StructureDefinition/CareConnect-ITK-Encounter-1"/>
				</meta>
				<identifier>
					<system value="https://tools.ietf.org/html/rfc4122"/>
					<value value="13c73015-d8fa-4844-8d68-4f856883eca8"/>
				</identifier>
				<status value="finished"/>
				<class>
					<system value="http://hl7.org/fhir/v3/ActCode"/>
					<code value="IMP"/>
					<display value="inpatient encounter"/>
				</class>
				<!--Specific type of encounter-->
				<type>
					<coding>
						<system value="http://snomed.info/sct"/>
						<code value="24882007"/>
						<display value="Medical consultation on hospital inpatient"/>
					</coding>
				</type>
				<!--Reference to the patient as the subject of the Encounter-->
				<subject>
					<reference value="urn:uuid:31686b67-9f20-4644-9a54-193d2f91de57"/>
				</subject>
				<participant>
					<type>
						<coding>
							<system value="http://hl7.org/fhir/v3/ParticipationType"/>
							<code value="DIS"/>
							<display value="discharger"/>
						</coding>
					</type>
					<individual>
						<reference value="urn:uuid:6239b7a7-380d-46ff-a1c5-7abc4e68f8bc"/>
					</individual>
				</participant>
				<period>
					<start value="2015-02-12T09:00:00+00:00"/>
					<end value="2015-02-16T15:00:00+00:00"/>
				</period>
				<reason>
					<coding>
						<system value="http://snomed.info/sct"/>
						<code value="425419005"/>
						<display value="ECG: inferior ischaemia"/>
					</coding>
				</reason>
				<hospitalization>
					<!--From where patient was admitted-->
					<admitSource>
						<coding>
							<system value="https://fhir.hl7.org.uk/STU3/CodeSystem/CareConnect-SourceOfAdmission-1"/>
							<code value="51"/>
							<display value="NHS other Hospital Provider - Ward for general Patients or the 
younger physically disabled or A and E department"/>
						</coding>
					</admitSource>
					<!--Category or kind of location after discharge-->
					<dischargeDisposition>
						<coding>
							<system value="https://fhir.hl7.org.uk/STU3/CodeSystem/CareConnect-DischargeDestination-1"/>
							<code value="19"/>
							<display value="Usual place of residence unless listed below, for example, a private dwelling whether owner occupied or owned by Local Authority, housing association or other landlord. This includes wardened accommodation but not residential accommodation where health care is provided. It also includes Patients with no fixed abode."/>
						</coding>
					</dischargeDisposition>
				</hospitalization>
				<!--List of locations where the patient has been-->
				<location>
					<!-- Discharge location-->
					<location>
						<reference value="urn:uuid:01bb1ccc-577b-4a4a-9fb0-9c8fe9f21fa3"/>
					</location>
					<period>
						<end value="2015-02-16T15:00:00+00:00"/>
					</period>
				</location>
			</Encounter>
		</resource>
	</entry>
	<!--Medication list-->
	<entry>
		<fullUrl value="urn:uuid:d0710501-2e32-4cbd-bd63-a14354bbcd0f"/>
		<resource>
			<List>
				<id value="d0710501-2e32-4cbd-bd63-a14354bbcd0f"/>
				<meta>
					<profile value="https://fhir.nhs.uk/STU3/StructureDefinition/CareConnect-ITK-Medication-List-1"/>
				</meta>
				<identifier>
					<system value="https://tools.ietf.org/html/rfc4122"/>
					<value value="cb8e31b2-15d4-4fe6-a690-13934348fbf1"/>
				</identifier>
				<status value="current"/>
				<mode value="snapshot"/>
				<code>
					<coding>
						<system value="http://snomed.info/sct"/>
						<code value="1102411000000102"/>
						<display value="Active medications"/>
					</coding>
				</code>
				<subject>
					<reference value="urn:uuid:31686b67-9f20-4644-9a54-193d2f91de57"/>
				</subject>
				<encounter>
					<reference value="urn:uuid:4f36b35a-ad18-4ea9-a3fb-c893f709e88a"/>
				</encounter>
				<source>
					<reference value="urn:uuid:6239b7a7-380d-46ff-a1c5-7abc4e68f8bc"/>
				</source>
				<entry>
					<item>
						<reference value="urn:uuid:a94d6293-cfc0-45a3-b7a8-ae7040f990f1"/>
					</item>
				</entry>
				<entry>
					<item>
						<reference value="urn:uuid:934ac400-f197-4bbc-a307-5ce8d271d4dd"/>
					</item>
				</entry>
				<entry>
					<item>
						<reference value="urn:uuid:1092404d-00c9-4f9e-b7df-9abbc8762c91"/>
					</item>
				</entry>
				<entry>
					<item>
						<reference value="urn:uuid:539258fb-08de-44a4-8683-f72b235c43af"/>
					</item>
				</entry>
				<entry>
					<item>
						<reference value="urn:uuid:11baa8fd-b670-47d1-ab3a-183488af5c6e"/>
					</item>
				</entry>
			</List>
		</resource>
	</entry>
	<!--Medication statement example 1-->
	<entry>
		<fullUrl value="urn:uuid:a94d6293-cfc0-45a3-b7a8-ae7040f990f1"/>
		<resource>
			<MedicationStatement>
				<id value="a94d6293-cfc0-45a3-b7a8-ae7040f990f1"/>
				<meta>
					<profile value="https://fhir.nhs.uk/STU3/StructureDefinition/CareConnect-ITK-MedicationStatement-1"/>
				</meta>
				<extension url="https://fhir.hl7.org.uk/STU3/StructureDefinition/Extension-CareConnect-MedicationChangeSummary-1">
					<extension url="status">
						<valueCode value="Continued"/>
					</extension>
				</extension>
				<status value="active"/>
				<medicationReference>
					<reference value="urn:uuid:ebc37408-dc6c-437a-a09f-f7ee88927e3f"/>
				</medicationReference>
				<subject>
					<reference value="urn:uuid:31686b67-9f20-4644-9a54-193d2f91de57"/>
				</subject>
				<taken value="y"/>
				<dosage>
					<text value="One 2.5mg tablet once a day."/>
					<route>
						<coding>
							<system value="http://snomed.info/sct"/>
							<code value="26643006"/>
							<display value="Oral"/>
						</coding>
					</route>
				</dosage>
			</MedicationStatement>
		</resource>
	</entry>
	<!--Medication Statement Example 2-->
	<entry>
		<fullUrl value="urn:uuid:934ac400-f197-4bbc-a307-5ce8d271d4dd"/>
		<resource>
			<MedicationStatement>
				<id value="934ac400-f197-4bbc-a307-5ce8d271d4dd"/>
				<meta>
					<profile value="https://fhir.nhs.uk/STU3/StructureDefinition/CareConnect-ITK-MedicationStatement-1"/>
				</meta>
				<extension url="https://fhir.hl7.org.uk/STU3/StructureDefinition/Extension-CareConnect-MedicationChangeSummary-1">
					<extension url="status">
						<valueCode value="Continued"/>
					</extension>
				</extension>
				<status value="active"/>
				<medicationReference>
					<reference value="urn:uuid:3ce528f4-4b5f-4493-9d8a-4681f9480090"/>
				</medicationReference>
				<subject>
					<reference value="urn:uuid:31686b67-9f20-4644-9a54-193d2f91de57"/>
				</subject>
				<taken value="y"/>
				<dosage>
					<text value="Take one 75mg tablet once a day."/>
					<route>
						<coding>
							<system value="http://snomed.info/sct"/>
							<code value="26643006"/>
							<display value="Oral"/>
						</coding>
					</route>
				</dosage>
			</MedicationStatement>
		</resource>
	</entry>
	<!--Medication Statement Example 3-->
	<entry>
		<fullUrl value="urn:uuid:1092404d-00c9-4f9e-b7df-9abbc8762c91"/>
		<resource>
			<MedicationStatement>
				<id value="1092404d-00c9-4f9e-b7df-9abbc8762c91"/>
				<meta>
					<profile value="https://fhir.nhs.uk/STU3/StructureDefinition/CareConnect-ITK-MedicationStatement-1"/>
				</meta>
				<extension url="https://fhir.hl7.org.uk/STU3/StructureDefinition/Extension-CareConnect-MedicationChangeSummary-1">
					<extension url="status">
						<valueCode value="Added"/>
					</extension>
				</extension>
				<status value="active"/>
				<medicationReference>
					<reference value="urn:uuid:00988800-c1e6-43b1-96c5-f0dc2ac4fa1d"/>
				</medicationReference>
				<subject>
					<reference value="urn:uuid:31686b67-9f20-4644-9a54-193d2f91de57"/>
				</subject>
				<taken value="y"/>
				<dosage>
					<text value="Take one 75mg tablet daily for one year then stop."/>
					<route>
						<coding>
							<system value="http://snomed.info/sct"/>
							<code value="26643006"/>
							<display value="Oral"/>
						</coding>
					</route>
				</dosage>
			</MedicationStatement>
		</resource>
	</entry>
	<!--Medication Statement Example 4-->
	<entry>
		<fullUrl value="urn:uuid:539258fb-08de-44a4-8683-f72b235c43af"/>
		<resource>
			<MedicationStatement>
				<id value="539258fb-08de-44a4-8683-f72b235c43af"/>
				<meta>
					<profile value="https://fhir.nhs.uk/STU3/StructureDefinition/CareConnect-ITK-MedicationStatement-1"/>
				</meta>
				<extension url="https://fhir.hl7.org.uk/STU3/StructureDefinition/Extension-CareConnect-MedicationChangeSummary-1">
					<extension url="status">
						<valueCode value="Continued"/>
					</extension>
				</extension>
				<status value="active"/>
				<medicationReference>
					<reference value="urn:uuid:10fc330a-e94f-4a49-94ad-84edf525a727"/>
				</medicationReference>
				<subject>
					<reference value="urn:uuid:31686b67-9f20-4644-9a54-193d2f91de57"/>
				</subject>
				<taken value="y"/>
				<dosage>
					<text value="Take one 40mg tablet once a day."/>
					<route>
						<coding>
							<system value="http://snomed.info/sct"/>
							<code value="26643006"/>
							<display value="Oral"/>
						</coding>
					</route>
				</dosage>
			</MedicationStatement>
		</resource>
	</entry>
	<!--Medication Statement Example 5-->
	<entry>
		<fullUrl value="urn:uuid:11baa8fd-b670-47d1-ab3a-183488af5c6e"/>
		<resource>
			<MedicationStatement>
				<id value="11baa8fd-b670-47d1-ab3a-183488af5c6e"/>
				<meta>
					<profile value="https://fhir.nhs.uk/STU3/StructureDefinition/CareConnect-ITK-MedicationStatement-1"/>
				</meta>
				<extension url="https://fhir.hl7.org.uk/STU3/StructureDefinition/Extension-CareConnect-MedicationChangeSummary-1">
					<extension url="status">
						<valueCode value="Continued"/>
					</extension>
				</extension>
				<status value="active"/>
				<medicationReference>
					<reference value="urn:uuid:403dcbfb-aadb-4ce5-b566-6ec52c9f9855"/>
				</medicationReference>
				<subject>
					<reference value="urn:uuid:31686b67-9f20-4644-9a54-193d2f91de57"/>
				</subject>
				<taken value="y"/>
				<dosage>
					<text value="Take one 5mg tablet daily."/>
					<route>
						<coding>
							<system value="http://snomed.info/sct"/>
							<code value="26643006"/>
							<display value="Oral"/>
						</coding>
					</route>
				</dosage>
			</MedicationStatement>
		</resource>
	</entry>
	<!--Medication Example 1-->
	<entry>
		<fullUrl value="urn:uuid:ebc37408-dc6c-437a-a09f-f7ee88927e3f"/>
		<resource>
			<Medication>
				<id value="ebc37408-dc6c-437a-a09f-f7ee88927e3f"/>
				<meta>
					<profile value="https://fhir.nhs.uk/STU3/StructureDefinition/CareConnect-ITK-Medication-1"/>
				</meta>
				<code>
					<coding>
						<system value="http://snomed.info/sct"/>
						<code value="5884511000001100"/>
						<display value="Ramipril 2.5mg tablets (A A H Pharmaceuticals Ltd)"/>
					</coding>
				</code>
				<form>
					<coding>
						<system value="http://snomed.info/sct"/>
						<code value="385055001"/>
						<display value="Tablet"/>
					</coding>
				</form>
			</Medication>
		</resource>
	</entry>
	<!-- Medication example 2-->
	<entry>
		<fullUrl value="urn:uuid:3ce528f4-4b5f-4493-9d8a-4681f9480090"/>
		<resource>
			<Medication>
				<id value="3ce528f4-4b5f-4493-9d8a-4681f9480090"/>
				<meta>
					<profile value="https://fhir.nhs.uk/STU3/StructureDefinition/CareConnect-ITK-Medication-1"/>
				</meta>
				<code>
					<coding>
						<system value="http://snomed.info/sct"/>
						<code value="29774911000001105"/>
						<display value="Aspirin 75mg tablets (Sigma Pharmaceuticals Plc)"/>
					</coding>
				</code>
				<form>
					<coding>
						<system value="http://snomed.info/sct"/>
						<code value="385055001"/>
						<display value="Tablet"/>
					</coding>
				</form>
			</Medication>
		</resource>
	</entry>
	<!-- Medication example 3-->
	<entry>
		<fullUrl value="urn:uuid:00988800-c1e6-43b1-96c5-f0dc2ac4fa1d"/>
		<resource>
			<Medication>
				<id value="00988800-c1e6-43b1-96c5-f0dc2ac4fa1d"/>
				<meta>
					<profile value="https://fhir.nhs.uk/STU3/StructureDefinition/CareConnect-ITK-Medication-1"/>
				</meta>
				<code>
					<coding>
						<system value="http://snomed.info/sct"/>
						<code value="21643011000001107"/>
						<display value="Clopidogrel 75mg tablets (Almus Pharmaceuticals Ltd)"/>
					</coding>
				</code>
				<form>
					<coding>
						<system value="http://snomed.info/sct"/>
						<code value="385055001"/>
						<display value="Tablet"/>
					</coding>
				</form>
			</Medication>
		</resource>
	</entry>
	<!-- Medication example 4-->
	<entry>
		<fullUrl value="urn:uuid:10fc330a-e94f-4a49-94ad-84edf525a727"/>
		<resource>
			<Medication>
				<id value="10fc330a-e94f-4a49-94ad-84edf525a727"/>
				<meta>
					<profile value="https://fhir.nhs.uk/STU3/StructureDefinition/CareConnect-ITK-Medication-1"/>
				</meta>
				<code>
					<coding>
						<system value="http://snomed.info/sct"/>
						<code value="32495011000001103"/>
						<display value="Simvastatin 40mg tablets (Brown &amp; Burk UK Ltd)"/>
					</coding>
				</code>
				<form>
					<coding>
						<system value="http://snomed.info/sct"/>
						<code value="385055001"/>
						<display value="Tablet"/>
					</coding>
				</form>
			</Medication>
		</resource>
	</entry>
	<!-- Medication example 5-->
	<entry>
		<fullUrl value="urn:uuid:403dcbfb-aadb-4ce5-b566-6ec52c9f9855"/>
		<resource>
			<Medication>
				<id value="403dcbfb-aadb-4ce5-b566-6ec52c9f9855"/>
				<meta>
					<profile value="https://fhir.nhs.uk/STU3/StructureDefinition/CareConnect-ITK-Medication-1"/>
				</meta>
				<code>
					<coding>
						<system value="http://snomed.info/sct"/>
						<code value="249811000001104"/>
						<display value="Bisoprolol 5mg tablets (A A H Pharmaceuticals Ltd)"/>
					</coding>
				</code>
				<form>
					<coding>
						<system value="http://snomed.info/sct"/>
						<code value="385055001"/>
						<display value="Tablet"/>
					</coding>
				</form>
			</Medication>
		</resource>
	</entry>
	<entry>
		<fullUrl value="urn:uuid:95e8f8d0-dfc3-4c72-a9dc-7ba1ccd1fab4"/>
		<resource>
			<List>
				<id value="95e8f8d0-dfc3-4c72-a9dc-7ba1ccd1fab4"/>
				<meta>
					<profile value="https://fhir.nhs.uk/STU3/StructureDefinition/CareConnect-ITK-Allergy-List-1"/>
				</meta>
				<identifier>
					<system value="https://tools.ietf.org/html/rfc4122"/>
					<value value="6ee0967d-aaa7-411a-9398-518c089ce3a1"/>
				</identifier>
				<status value="current"/>
				<mode value="snapshot"/>
				<code>
					<coding>
						<system value="http://snomed.info/sct"/>
						<code value="886921000000105"/>
						<display value="Allergies and adverse reactions"/>
					</coding>
				</code>
				<subject>
					<reference value="urn:uuid:31686b67-9f20-4644-9a54-193d2f91de57"/>
				</subject>
				<encounter>
					<reference value="urn:uuid:4f36b35a-ad18-4ea9-a3fb-c893f709e88a"/>
				</encounter>
				<source>
					<reference value="urn:uuid:6239b7a7-380d-46ff-a1c5-7abc4e68f8bc"/>
				</source>
				<entry>
					<item>
						<reference value="urn:uuid:9a1c380c-e8b0-4814-aefc-ee69d39b1079"/>
					</item>
				</entry>
			</List>
		</resource>
	</entry>
	<entry>
		<fullUrl value="urn:uuid:9a1c380c-e8b0-4814-aefc-ee69d39b1079"/>
		<resource>
			<AllergyIntolerance>
				<id value="9a1c380c-e8b0-4814-aefc-ee69d39b1079"/>
				<meta>
					<profile value="https://fhir.nhs.uk/STU3/StructureDefinition/CareConnect-ITK-AllergyIntolerance-1"/>
				</meta>
				<identifier>
					<system value="https://tools.ietf.org/html/rfc4122"/>
					<value value="06d65f0f-117a-43c6-84ea-f28c3bd664a2"/>
				</identifier>
				<clinicalStatus value="active"/>
				<verificationStatus value="confirmed"/>
				<category value="medication"/>
				<code>
					<coding>
						<system value="http://snomed.info/sct"/>
						<code value="373270004"/>
						<display value="Penicillin -class of antibiotic-"/>
					</coding>
				</code>
				<patient>
					<reference value="urn:uuid:31686b67-9f20-4644-9a54-193d2f91de57"/>
				</patient>
				<assertedDate value="2015-02-12"/>
				<reaction>
					<manifestation>
						<coding>
							<system value="http://snomed.info/sct"/>
							<code value="28926001"/>
							<display value="Eruption due to drug"/>
						</coding>
					</manifestation>
					<severity value="mild"/>
				</reaction>
			</AllergyIntolerance>
		</resource>
	</entry>
	<!--Condition list-->
	<entry>
		<fullUrl value="urn:uuid:caf5f17d-e73d-4aaa-a406-dab1717da0c4"/>
		<resource>
			<List>
				<id value="caf5f17d-e73d-4aaa-a406-dab1717da0c4"/>
				<meta>
					<profile value="https://fhir.nhs.uk/STU3/StructureDefinition/CareConnect-ITK-Condition-List-1"/>
				</meta>
				<identifier>
					<system value="https://tools.ietf.org/html/rfc4122"/>
					<value value="91b64907-decb-4dfe-af45-cfbad8028f85"/>
				</identifier>
				<status value="current"/>
				<mode value="snapshot"/>
				<code>
					<coding>
						<system value="http://snomed.info/sct"/>
						<code value="887161000000102"/>
						<display value="Diagnoses"/>
					</coding>
				</code>
				<subject>
					<reference value="urn:uuid:31686b67-9f20-4644-9a54-193d2f91de57"/>
				</subject>
				<encounter>
					<reference value="urn:uuid:4f36b35a-ad18-4ea9-a3fb-c893f709e88a"/>
				</encounter>
				<source>
					<reference value="urn:uuid:6239b7a7-380d-46ff-a1c5-7abc4e68f8bc"/>
				</source>
				<entry>
					<item>
						<reference value="urn:uuid:8197e5be-1483-48e6-bf30-842f5184d4cf"/>
					</item>
				</entry>
			</List>
		</resource>
	</entry>
	<!--Condition example 1-->
	<entry>
		<fullUrl value="urn:uuid:8197e5be-1483-48e6-bf30-842f5184d4cf"/>
		<resource>
			<Condition>
				<id value="8197e5be-1483-48e6-bf30-842f5184d4cf"/>
				<meta>
					<profile value="https://fhir.nhs.uk/STU3/StructureDefinition/CareConnect-ITK-Condition-1"/>
				</meta>
				<identifier>
					<system value="https://tools.ietf.org/html/rfc4122"/>
					<value value="967d26cb-10cd-4291-9d5c-30ac79e42719"/>
				</identifier>
				<clinicalStatus value="active"/>
				<category>
					<coding>
						<system value="https://fhir.hl7.org.uk/STU3/CodeSystem/CareConnect-ConditionCategory-1"/>
						<code value="encounter-diagnosis"/>
						<display value="Encounter Diagnosis"/>
					</coding>
				</category>
				<code>
					<coding>
						<system value="http://snomed.info/sct"/>
						<code value="53741008"/>
						<display value="Coronary arteriosclerosis"/>
					</coding>
				</code>
				<subject>
					<reference value="urn:uuid:31686b67-9f20-4644-9a54-193d2f91de57"/>
				</subject>
				<context>
					<reference value="urn:uuid:4f36b35a-ad18-4ea9-a3fb-c893f709e88a"/>
				</context>
			</Condition>
		</resource>
	</entry>
	<!-- Procedure List-->
	<entry>
		<fullUrl value="urn:uuid:1e04ce96-6e52-4f82-bc26-93c89c5836a1"/>
		<resource>
			<List>
				<id value="1e04ce96-6e52-4f82-bc26-93c89c5836a1"/>
				<meta>
					<profile value="https://fhir.nhs.uk/STU3/StructureDefinition/CareConnect-ITK-Procedure-List-1"/>
				</meta>
				<identifier>
					<system value="https://tools.ietf.org/html/rfc4122"/>
					<value value="cdd92a18-ffb2-4e3f-aacf-de0e01bb3120"/>
				</identifier>
				<status value="current"/>
				<mode value="snapshot"/>
				<code>
					<coding>
						<system value="http://snomed.info/sct"/>
						<code value="887171000000109"/>
						<display value="Procedures"/>
					</coding>
				</code>
				<subject>
					<reference value="urn:uuid:31686b67-9f20-4644-9a54-193d2f91de57"/>
				</subject>
				<encounter>
					<reference value="urn:uuid:4f36b35a-ad18-4ea9-a3fb-c893f709e88a"/>
				</encounter>
				<source>
					<reference value="urn:uuid:6239b7a7-380d-46ff-a1c5-7abc4e68f8bc"/>
				</source>
				<entry>
					<item>
						<reference value="urn:uuid:6ea2da97-73e2-4507-b7a5-f7c0325021a9"/>
					</item>
				</entry>
			</List>
		</resource>
	</entry>
	<!--Procedure Example 1-->
	<entry>
		<fullUrl value="urn:uuid:6ea2da97-73e2-4507-b7a5-f7c0325021a9"/>
		<resource>
			<Procedure>
				<id value="6ea2da97-73e2-4507-b7a5-f7c0325021a9"/>
				<meta>
					<profile value="https://fhir.nhs.uk/STU3/StructureDefinition/CareConnect-ITK-Procedure-1"/>
				</meta>
				<identifier>
					<system value="https://tools.ietf.org/html/rfc4122"/>
					<value value="1f2f7b4e-8a61-4211-95b6-034a9a85df58"/>
				</identifier>
				<status value="completed"/>
				<code>
					<coding>
						<system value="http://snomed.info/sct"/>
						<code value="415070008"/>
						<display value="Percutaneous coronary intervention"/>
					</coding>
				</code>
				<subject>
					<reference value="urn:uuid:31686b67-9f20-4644-9a54-193d2f91de57"/>
				</subject>
				<context>
					<reference value="urn:uuid:4f36b35a-ad18-4ea9-a3fb-c893f709e88a"/>
				</context>
				<bodySite>
					<coding>
						<system value="http://snomed.info/sct"/>
						<code value="13647002"/>
						<display value="Right coronary artery structure"/>
					</coding>
				</bodySite>
			</Procedure>
		</resource>
	</entry>
	<!--Patient example-->
	<entry>
		<fullUrl value="urn:uuid:31686b67-9f20-4644-9a54-193d2f91de57"/>
		<resource>
			<Patient>
				<id value="31686b67-9f20-4644-9a54-193d2f91de57"/>
				<meta>
					<profile value="https://fhir.hl7.org.uk/STU3/StructureDefinition/CareConnect-Patient-1"/>
				</meta>
				<identifier>
					<extension url="https://fhir.hl7.org.uk/STU3/StructureDefinition/Extension-CareConnect-NHSNumberVerificationStatus-1">
						<valueCodeableConcept>
							<coding>
								<system value="https://fhir.hl7.org.uk/STU3/CodeSystem/CareConnect-NHSNumberVerificationStatus-1"/>
								<code value="01"/>
								<display value="Number present and verified"/>
							</coding>
						</valueCodeableConcept>
					</extension>
					<system value="https://fhir.nhs.uk/Id/nhs-number"/>
					<value value="1352465790"/>
				</identifier>
				<name>
					<use value="official"/>
					<family value="Smith"/>
					<given value="Richard"/>
					<prefix value="Mr"/>
				</name>
				<gender value="male"/>
				<birthDate value="1957-01-01"/>
				<address>
					<line value="21, Grove Street, Overtown"/>
					<city value="Leeds"/>
					<postalCode value="LS21 1PF"/>
				</address>
			</Patient>
		</resource>
	</entry>
	<!--Practitioner-Example-1-->
	<entry>
		<fullUrl value="urn:uuid:6239b7a7-380d-46ff-a1c5-7abc4e68f8bc"/>
		<resource>
			<Practitioner>
				<id value="6239b7a7-380d-46ff-a1c5-7abc4e68f8bc"/>
				<meta>
					<profile value="https://fhir.hl7.org.uk/STU3/StructureDefinition/CareConnect-Practitioner-1"/>
				</meta>
				<identifier>
					<system value="https://fhir.hl7.org.uk/Id/gmc-number"/>
					<value value="6122477"/>
				</identifier>
				<name>
					<family value="Rastall"/>
					<given value="Paul"/>
					<prefix value="Dr"/>
				</name>
				<telecom>
					<system value="phone"/>
					<value value="0113 6323200"/>
					<use value="work"/>
				</telecom>
			</Practitioner>
		</resource>
	</entry>
	<!--Practitioner-Example-2-->
	<entry>
		<fullUrl value="urn:uuid:8ece9986-9af0-4882-b0cf-23a96ea7b509"/>
		<resource>
			<Practitioner>
				<id value="8ece9986-9af0-4882-b0cf-23a96ea7b509"/>
				<meta>
					<profile value="https://fhir.hl7.org.uk/STU3/StructureDefinition/CareConnect-Practitioner-1"/>
				</meta>
				<identifier>
					<system value="https://fhir.nhs.uk/Id/sds-user-id"/>
					<value value="033345750517"/>
				</identifier>
				<name>
					<family value="Jones"/>
					<given value="Angela"/>
					<prefix value="Mrs"/>
				</name>
			</Practitioner>
		</resource>
	</entry>
	<!--Practitioner-Example-3-->
	<entry>
		<fullUrl value="urn:uuid:5e414a77-d394-4248-a631-00e45ddb64a0"/>
		<resource>
			<Practitioner>
				<id value="5e414a77-d394-4248-a631-00e45ddb64a0"/>
				<meta>
					<profile value="https://fhir.hl7.org.uk/STU3/StructureDefinition/CareConnect-Practitioner-1"/>
				</meta>
				<identifier>
					<system value="https://fhir.nhs.uk/Id/local-practitioner-identifier"/>
					<value value="6122472"/>
				</identifier>
				<name>
					<family value="Lorenzo"/>
					<given value="John"/>
					<prefix value="Dr"/>
				</name>
			</Practitioner>
		</resource>
	</entry>
	<!--Practitioner-Example-4-->
	<entry>
		<fullUrl value="urn:uuid:d791b058-2624-436a-bc02-db38d65325b8"/>
		<resource>
			<Practitioner>
				<id value="d791b058-2624-436a-bc02-db38d65325b8"/>
				<meta>
					<profile value="https://fhir.hl7.org.uk/STU3/StructureDefinition/CareConnect-Practitioner-1"/>
				</meta>
				<name>
					<family value="Smith"/>
					<given value="Amanda"/>
					<prefix value="Dr"/>
				</name>
				<telecom>
					<system value="phone"/>
					<value value="0113 6323222"/>
					<use value="work"/>
				</telecom>
			</Practitioner>
		</resource>
	</entry>
	<entry>
		<fullUrl value="urn:uuid:7016a1b0-9fa4-4f4f-9eef-0922f3b2aa48"/>
		<resource>
			<PractitionerRole>
				<id value="7016a1b0-9fa4-4f4f-9eef-0922f3b2aa48"/>
				<meta>
					<profile value="https://fhir.hl7.org.uk/STU3/StructureDefinition/CareConnect-PractitionerRole-1"/>
				</meta>
				<practitioner>
					<reference value="urn:uuid:6239b7a7-380d-46ff-a1c5-7abc4e68f8bc"/>
				</practitioner>
				<organization>
					<reference value="urn:uuid:12bba528-a08a-448b-946b-7e8008044025"/>
				</organization>
				<code>
					<coding>
						<system value="https://fhir.hl7.org.uk/STU3/CodeSystem/CareConnect-SDSJobRoleName-1"/>
						<code value="R0050"/>
						<display value="Consultant"/>
					</coding>
				</code>
				<specialty>
					<coding>
						<system value="http://snomed.info/sct"/>
						<code value="394579002"/>
						<display value="Cardiology"/>
					</coding>
				</specialty>
			</PractitionerRole>
		</resource>
	</entry>
	<entry>
		<fullUrl value="urn:uuid:a7922b56-d0da-4437-9c45-901b399e8cc5"/>
		<resource>
			<PractitionerRole>
				<id value="a7922b56-d0da-4437-9c45-901b399e8cc5"/>
				<meta>
					<profile value="https://fhir.hl7.org.uk/STU3/StructureDefinition/CareConnect-PractitionerRole-1"/>
				</meta>
				<practitioner>
					<reference value="urn:uuid:8ece9986-9af0-4882-b0cf-23a96ea7b509"/>
				</practitioner>
				<organization>
					<reference value="urn:uuid:acd640c9-5ff9-41ae-9ef3-07a1d5667140"/>
				</organization>
				<code>
					<coding>
						<system value="https://fhir.hl7.org.uk/STU3/CodeSystem/CareConnect-SDSJobRoleName-1"/>
						<code value="R0700"/>
						<display value="Community Nurse"/>
					</coding>
				</code>
			</PractitionerRole>
		</resource>
	</entry>
	<entry>
		<fullUrl value="urn:uuid:98828e88-b869-439d-8a64-10fd2cd7a4cd"/>
		<resource>
			<PractitionerRole>
				<id value="98828e88-b869-439d-8a64-10fd2cd7a4cd"/>
				<meta>
					<profile value="https://fhir.hl7.org.uk/STU3/StructureDefinition/CareConnect-PractitionerRole-1"/>
				</meta>
				<practitioner>
					<reference value="urn:uuid:5e414a77-d394-4248-a631-00e45ddb64a0"/>
				</practitioner>
				<organization>
					<reference value="urn:uuid:f9f24f89-646b-4a19-a6b1-cabfa3b612e1"/>
				</organization>
				<code>
					<coding>
						<system value="https://fhir.hl7.org.uk/STU3/CodeSystem/CareConnect-SDSJobRoleName-1"/>
						<code value="R0260"/>
						<display value="General Medical Practitioner"/>
					</coding>
				</code>
			</PractitionerRole>
		</resource>
	</entry>
	<entry>
		<fullUrl value="urn:uuid:3f4fc686-8796-4e68-b277-1970d7c9370f"/>
		<resource>
			<PractitionerRole>
				<id value="3f4fc686-8796-4e68-b277-1970d7c9370f"/>
				<meta>
					<profile value="https://fhir.hl7.org.uk/STU3/StructureDefinition/CareConnect-PractitionerRole-1"/>
				</meta>
				<practitioner>
					<reference value="urn:uuid:d791b058-2624-436a-bc02-db38d65325b8"/>
				</practitioner>
				<organization>
					<reference value="urn:uuid:5f76e146-3eaa-4f0e-aa3b-8d26b8b2febe"/>
				</organization>
				<code>
					<coding>
						<system value="https://fhir.hl7.org.uk/STU3/CodeSystem/CareConnect-SDSJobRoleName-1"/>
						<code value="R0110"/>
						<display value="Specialist Registrar"/>
					</coding>
				</code>
			</PractitionerRole>
		</resource>
	</entry>
	<!--Organization-Example-1-->
	<entry>
		<fullUrl value="urn:uuid:f9f24f89-646b-4a19-a6b1-cabfa3b612e1"/>
		<resource>
			<Organization>
				<id value="f9f24f89-646b-4a19-a6b1-cabfa3b612e1"/>
				<meta>
					<profile value="https://fhir.hl7.org.uk/STU3/StructureDefinition/CareConnect-Organization-1"/>
				</meta>
				<identifier>
					<system value="https://fhir.nhs.uk/Id/ods-organization-code"/>
					<value value="GP123456"/>
				</identifier>
				<name value="MGP Medical Centre"/>
				<address>
					<line value="1 MGP House, Overtown"/>
					<city value="Leeds"/>
					<postalCode value="LS21 7PA"/>
				</address>
			</Organization>
		</resource>
	</entry>
	<!--Organization-Example-2-->
	<entry>
		<fullUrl value="urn:uuid:12bba528-a08a-448b-946b-7e8008044025"/>
		<resource>
			<Organization>
				<id value="12bba528-a08a-448b-946b-7e8008044025"/>
				<meta>
					<profile value="https://fhir.hl7.org.uk/STU3/StructureDefinition/CareConnect-Organization-1"/>
				</meta>
				<identifier>
					<system value="https://fhir.nhs.uk/Id/ods-organization-code"/>
					<value value="RR8"/>
				</identifier>
				<name value="Leeds Teaching Hospitals NHS Trust"/>
				<address>
					<line value="St James's University Hospital, Beckett Street"/>
					<city value="Leeds"/>
					<postalCode value="LS9 7TF"/>
				</address>
			</Organization>
		</resource>
	</entry>
	<!--Organization-Example-3-->
	<entry>
		<fullUrl value="urn:uuid:acd640c9-5ff9-41ae-9ef3-07a1d5667140"/>
		<resource>
			<Organization>
				<id value="acd640c9-5ff9-41ae-9ef3-07a1d5667140"/>
				<meta>
					<profile value="https://fhir.hl7.org.uk/STU3/StructureDefinition/CareConnect-Organization-1"/>
				</meta>
				<identifier>
					<system value="https://fhir.nhs.uk/Id/ods-organization-code"/>
					<value value="RY6"/>
				</identifier>
				<name value="Leeds Community Healthcare NHS Trust"/>
			</Organization>
		</resource>
	</entry>
	<!--Organization-Example-4-->
	<entry>
		<fullUrl value="urn:uuid:5f76e146-3eaa-4f0e-aa3b-8d26b8b2febe"/>
		<resource>
			<Organization>
				<id value="5f76e146-3eaa-4f0e-aa3b-8d26b8b2febe"/>
				<meta>
					<profile value="https://fhir.hl7.org.uk/STU3/StructureDefinition/CareConnect-Organization-1"/>
				</meta>
				<name value="St. James's University Hospital Accident and Emergency Department"/>
				<address>
					<line value="St James's University Hospital, Beckett Street"/>
					<city value="Leeds"/>
					<postalCode value="LS9 7TF"/>
				</address>
			</Organization>
		</resource>
	</entry>
	<entry>
		<fullUrl value="urn:uuid:01bb1ccc-577b-4a4a-9fb0-9c8fe9f21fa3"/>
		<resource>
			<Location>
				<id value="01bb1ccc-577b-4a4a-9fb0-9c8fe9f21fa3"/>
				<meta>
					<profile value="https://fhir.hl7.org.uk/STU3/StructureDefinition/CareConnect-Location-1"/>
				</meta>
				<identifier>
					<system value="https://fhir.nhs.uk/Id/local-location-identifier"/>
					<value value="RR8CRAM"/>
				</identifier>
				<name value="Cramer Ward"/>
				<managingOrganization>
					<reference value="urn:uuid:12bba528-a08a-448b-946b-7e8008044025"/>
				</managingOrganization>
			</Location>
		</resource>
	</entry>
</Bundle>